Folder: ParSeq/data

Note: README.md
ParSeq
======

ParSeq is a python software library for Parallel execution of Sequential data
analysis. It implements a general analysis framework with a data model,
plotter, cross-data analysis and tunable widget work space. It also gives a
structure to implement particular analysis pipelines as relatively lightweight
Python packages.

ParSeq is intended for synchrotron based techniques, first of all spectroscopy.

It is in development state, not yet ready for general users.

A screenshot of the Dummy analysis pipeline serving as an application example:
<p align="center">
  <img src="doc/_images/mainWindow.png" width=1200 />
</p>

Main features
-------------

- Efficient use of screen area by detachable transformation nodes (parts of
  analysis pipeline).

- Two ways of acting from GUI onto multiple data: (a) simultaneous work with
  multiply selected data and (b) application of a specific parameter to later
  selected data (TODO).

- Undo and redo for all treatment steps.

- Entering into the analysis pipeline at any node, not only at the head of the
  pipeline.

- Creation of cross-data combinations (e.g. averaging, RMS or PCA) and their
  propagation downstream the pipeline together with the parental data. The
  possibility of termination of the parental data at any selected downstream
  node.

- Parallel execution of data analysis on GPU (TODO).

ParSeq creates a data analysis pipeline consisting of nodes and transforms
which connect the nodes. The pipeline is fed with data (spectra), possibly
entering the pipeline at various nodes. The pipeline can be operated via
scripts or GUI. The mechanisms for creating nodes and transforms and connecting
them together are exemplified by the sub-package `parseq/apps/dummy` (a simple
pipeline).

Dependencies
------------

silx -- is used for plotting and Qt imports.

How to test
-----------

Run `tests\test_mainWindow.py`. It loads a few EXAFS spectra located in `data`.
Tested on Windows (10), Linux (Ubuntu 18.10 and Kubuntu 18.04) and macOS
(10.13), with Python 2 and 3, PyQt4 and PyQt5, `matplotlib` and `opengl`
backends of silx plotter (both have some issues).
The folder `tests` has other scripts for testing various parts of ParSeq.

File: Cu NIST test 10k_5.dat
# XDI/1.0
# Element.symbol: Cu
# Element.edge: K
# Column.1: energy eV
# Column.2: EnergySetpoint
# Column.3: EnergyFeedback
# Column.4: ScalerDwellTimeFeedback
# Column.5: I0Detector_DarkCorrect
# Column.6: I1Detector_DarkCorrect
# Column.7: I2Detector_DarkCorrect
#/////////////////////////////////
# Scan: Cu NIST test 10k #5
# Date: 2019 02 25 02:49:31
#
# SR1 current: 192.734 mA
# Settling time: 0.1 s
# I0 amplifier sensitivity: 2 uA/V
# I1 amplifier sensitivity: 2 uA/V
# I2 amplifier sensitivity: 1 uA/V
#
# Endstation
# BioXAS Beamline - Main Endstation
#
# Regions Of Interest
# Cu Ka1	7864 eV	8261 eV
#
# Scanned Regions
# Start:	8829 eV	Step: 10 eV	End:	8949 eV	Time: 5 s
#
# Start:	8949 eV	Step: 0.5 eV	End:	9009 eV	Time: 10 s
#
# Start: 9009 eV	Delta: 0.05 k	End: 10 k	Start time: 10 s	Maximum time (used with variable integration time): 15 s
#
# Dark Current Values
# I0Detector: 768.667 counts
# I1Detector: 1281.13 counts
# I2Detector: 1166.33 counts
# Cu Ka1: 0 counts
# Cu Ka1_1: 0 counts
# Cu Ka1_2: 0 counts
# Cu Ka1_4: 0 counts
# Cu Ka1_7: 0 counts
# Cu Ka1_8: 0 counts
# Cu Ka1_9: 0 counts
# Cu Ka1_10: 0 counts
# Cu Ka1_12: 0 counts
# Cu Ka1_13: 0 counts
# Cu Ka1_14: 0 counts
# Cu Ka1_15: 0 counts
# Cu Ka1_17: 0 counts
# Cu Ka1_18: 0 counts
# Cu Ka1_19: 0 counts
# Cu Ka1_20: 0 counts
# Cu Ka1_21: 0 counts
# Cu Ka1_23: 0 counts
# Cu Ka1_24: 0 counts
# Cu Ka1_25: 0 counts
# Cu Ka1_26: 0 counts
# Cu Ka1_28: 0 counts
# Cu Ka1_29: 0 counts
# Cu Ka1_30: 0 counts
# Cu Ka1_31: 0 counts
# Cu Ka1_32: 0 counts
#
#
#
# Notes:
#
#
# #----------------------------------
# EnergySetpoint.X	EnergySetpoint	EnergyFeedback	ScalerDwellTimeFeedback	I0Detector_DarkCorrect	I1Detector_DarkCorrect	I2Detector_DarkCorrect

8829	8829	8829	5000	359553.67	-63.6667	-55.6667
8849	8849	8849	5000	349562.67	-59.6667	-48.6667
8869	8869	8869	5000	340279.67	-72.6667	-54.6667
8889	8889	8889	5000	332046.67	-64.6667	-53.6667
8909	8909	8909	5000	324621.67	-71.6667	-50.6667
8929	8929	8929	5000	318009.67	-73.6667	-51.6667
8949	8949	8949	10000	623490.33	-122.333	-103.333
8950	8950	8950	10000	622666.33	-106.333	-103.333
8951	8951	8951	10000	622091.33	-112.333	-105.333
8952	8952	8952	10000	621388.33	-116.333	-104.333
8953	8953	8953	10000	620655.33	-117.333	-107.333
8954	8954	8954	10000	619555.33	-111.333	-108.333
8955	8955	8955	10000	618497.33	-109.333	-103.333
8956.001	8956	8956.001	10000	617626.33	-92.3333	-106.333
8957	8957	8957	10000	616631.33	-114.333	-109.333
8958	8958	8958	10000	615829.33	-121.333	-110.333
8958.996	8959	8958.996	10000	615107.33	-90.3333	-107.333
8960	8960	8960	10000	614339.33	-99.3333	-99.3333
8961	8961	8961	10000	613445.33	-81.3333	-92.3333
8962	8962	8962	10000	612624.33	-104.333	-107.333
8963	8963	8963	10000	611926.33	-110.333	-108.333
8964	8964	8964	10000	610980.33	-100.333	-111.333
8965	8965	8965	10000	610251.33	-96.3333	-110.333
8966	8966	8966	10000	609654.33	-86.3333	-106.333
8967	8967	8967	10000	608727.33	-113.333	-110.333
8968	8968	8968	10000	607729.33	-124.333	-110.333
8969	8969	8969	10000	607003.33	-107.333	-112.333
8970	8970	8970	10000	606201.33	-105.333	-103.333
8971	8971	8971	10000	605577.33	-97.3333	-103.333
8972	8972	8972	10000	604781.33	-103.333	-106.333
8973	8973	8973	10000	603817.33	-109.333	-110.333
8974	8974	8974	10000	602896.33	-108.333	-107.333
8975	8975	8975	10000	602134.33	-129.333	-101.333
8976	8976	8976	10000	601434.33	-123.333	-97.3333
8977	8977	8977	10000	600911.33	-140.333	-108.333
8978	8978	8978	10000	600035.33	-110.333	-106.333
8979	8979	8979	10000	599082.33	-120.333	-102.333
8980	8980	8980	10000	598015.33	-138.333	-110.333
8981	8981	8981	10000	597122.33	-134.333	-110.333
8982	8982	8982	10000	596295.33	-143.333	-113.333
8983	8983	8983	10000	595624.33	-133.333	-109.333
8984	8984	8984	10000	594752.33	-121.333	-115.333
8985	8985	8985	10000	593902.33	-131.333	-126.333
8986	8986	8986	10000	593012.33	-108.333	-118.333
8987	8987	8987	10000	592115.33	-138.333	-114.333
8988	8988	8988	10000	591365.33	-132.333	-115.333
8989	8989	8989	10000	590159.33	-142.333	-114.333
8990	8990	8990	10000	587005.33	-139.333	-115.333
8991	8991	8991	10000	583509.33	-145.333	-119.333
8991.998	8992	8991.998	10000	582251.33	-133.333	-128.333
8993.001	8993	8993.001	10000	586274.33	-122.333	-125.333
8994	8994	8994	10000	585983.33	-144.333	-126.333
8995	8995	8995	10000	584339.33	-107.333	-128.333
8996	8996	8996	10000	577944.33	-131.333	-127.333
8997	8997	8997	10000	576391.33	-142.333	-116.333
8998	8998	8998	10000	576909.33	-151.333	-110.333
8999	8999	8999	10000	583846.33	-128.333	-109.333
9000	9000	9000	10000	583663.33	-133.333	-112.333
9001	9001	9001	10000	582535.33	-116.333	-116.333
9002	9002	9002	10000	581411.33	-139.333	-117.333
9003	9003	9003	10000	580335.33	-128.333	-119.333
9004	9004	9004	10000	579509.33	-135.333	-119.333
9005	9005	9005	10000	578938.33	-133.333	-114.333
9006	9006	9006	10000	578385.33	-134.333	-117.333
9007	9007	9007	10000	577354.33	-145.333	-115.333
9008	9008	9008	10000	576550.33	-147.333	-114.333
9009.003	9009	9009.003	10000	575832.33	-144.333	-114.333
9011.17	9011.18	9011.17	10030.997	576223.51	-146.045	-114.487
9013.429	9013.43	9013.429	10063.08	576525.85	-134.147	-119.906
9015.76	9015.76	9015.76	10096.248	576747.35	-142.64	-118.591
9018.16	9018.16	9018.16	10130.502	576983.02	-143.524	-124.542
9020.64	9020.65	9020.64	10165.841	577257.86	-155.798	-128.759
9023.21	9023.2	9023.21	10202.266	577597.86	-146.4626	-124.2425
9025.84	9025.84	9025.84	10239.776	577980.03	-129.518	-123.992
9028.55	9028.55	9028.55	10278.371	578220.36	-147.964	-133.007
9031.34	9031.33	9031.34	10318.052	578372.86	-142.8	-125.288
9034.19	9034.2	9034.19	10358.818	578891.52	-145.027	-128.835
9037.14	9037.13	9037.14	10400.67	579273.35	-147.645	-134.648
9040.15	9040.15	9040.15	10443.607	579517.35	-152.654	-118.727
9043.245	9043.24	9043.245	10487.63	579752.51	-137.052	-117.073
9046.41	9046.41	9046.41	10532.738	580024.84	-143.842	-117.684
9049.65	9049.652	9049.65	10578.932	580351.33	-134.022	-126.561
9052.97	9052.97	9052.97	10626.211	580469.99	-134.593	-120.7039
9056.36	9056.37	9056.36	10674.575	580543.81	-131.554	-119.113
9059.84	9059.84	9059.84	10724.025	580417.8	-143.9062	-120.7881
9063.39	9063.39	9063.39	10774.561	580244.95	-142.649	-123.729
9067.02	9067.01	9067.02	10826.181	580097.28	-123.7819	-121.936
9070.71	9070.71	9070.71	10878.888	579574.76	-117.306	-126.409
9074.49	9074.49	9074.49	10932.679	579121.41	-124.22	-138.148
9078.34	9078.35	9078.34	10987.557	578652.23	-137.525	-139.153
9082.276	9082.27	9082.276	11043.519	577730.21	-143.221	-137.425
9086.28	9086.28	9086.28	11100.567	576913.36	-124.307	-121.962
9090.36	9090.36	9090.36	11158.701	575861.68	-130.783	-137.765
9094.52	9094.521	9094.52	11217.92	574826.16	-124.651	-134.834
9098.75	9098.76	9098.75	11278.224	573475.81	-129.909	-134.169
9103.07	9103.07	9103.07	11339.614	571855.62	-141.557	-136.77
9107.45	9107.45	9107.45	11402.089	570251.59	-166.597	-142.6367
9111.92	9111.92	9111.92	11465.65	568516.74	-125.026	-138.77
9116.46	9116.46	9116.46	11530.296	566433.05	-126.8467	-146.169
9121.07	9121.07	9121.07	11596.028	563772.52	-130.058	-143.8337
9125.76	9125.76	9125.76	11662.845	560927.16	-140.659	-145.765
9130.53	9130.53	9130.53	11730.747	558790.97	-140.651	-152.962
9135.37	9135.38	9135.37	11799.735	555218.94	-157.034	-150.425
9140.29	9140.3	9140.29	11869.809	552614.07	-136.808	-153.1536
9145.29	9145.29	9145.29	11940.968	550659.38	-163.972	-160.149
9150.36	9150.37	9150.362	12013.212	547615.84	-164.526	-156.4095
9155.52	9155.51	9155.52	12086.542	544130.48	-182.471	-149.936
9160.74	9160.74	9160.74	12160.957	540298.28	-187.807	-154.729
9166.04	9166.04	9166.04	12236.458	536070.24	-171.534	-150.788
9171.42	9171.42	9171.42	12313.044	531816.37	-163.651	-160.113
9176.87	9176.87	9176.87	12390.715	527507.67	-176.158	-160.704
9182.41	9182.4	9182.41	12469.472	522849.13	-182.056	-157.561
9188.01	9188.01	9188.01	12549.315	518220.76	-201.345	-159.684
9193.69	9193.69	9193.69	12630.243	512993.55	-178.0247	-154.073
9199.45	9199.45	9199.45	12712.256	507970.51	-189.095	-156.728
9205.29	9205.29	9205.29	12795.355	502137.64	-158.555	-161.649
9211.19	9211.2	9211.19	12879.539	496414.93	-171.407	-162.8355
9217.19	9217.19	9217.19	12964.809	491030.38	-179.648	-171.288
9223.25	9223.25	9223.25	13051.164	484723.01	-164.281	-160.007
9229.38	9229.39	9229.38	13138.604	476729.79	-154.304	-167.992
9235.6	9235.61	9235.6	13227.13	473440.75	-171.717	-173.243
9241.9	9241.898	9241.9	13316.742	465609.86	-187.522	-164.76
9248.27	9248.27	9248.27	13407.439	460182.15	-189.717	-170.5426
9254.71	9254.71	9254.71	13499.221	453423.6	-181.302	-159.591
9261.23	9261.23	9261.23	13592.089	446623.21	-194.278	-149.906
9267.83	9267.83	9267.83	13686.042	440307	-195.645	-147.487
9274.5	9274.5	9274.5	13781.081	433625.94	-208.402	-156.334
9281.25	9281.25	9281.25	13877.205	426986.06	-202.55	-155.447
9288.08	9288.08	9288.08	13974.415	420822.33	-196.088	-172.825
9294.98	9294.98	9294.98	14072.71	414201.78	-219.017	-180.47
9301.96	9301.96	9301.96	14172.09	407662.39	-233.337	-182.381
9309.01	9309.01	9309.01	14272.556	401733.16	-233.047	-184.558
9316.14	9316.15	9316.14	14374.107	395682.1	-189.148	-188.001
9323.35	9323.35	9323.35	14476.744	389773.21	-199.64	-191.7093
9330.64	9330.64	9330.64	14580.466	384152.48	-224.5216	-183.684
9337.99	9337.99	9337.99	14685.274	378431.92	-205.794	-188.9248
9345.43	9345.43	9345.43	14791.167	372805.52	-223.458	-207.432
9352.94	9352.94	9352.94	14898.146	369364.29	-243.511	-205.204
9360.09	9360.09	9360.09	15000	363853	-249	-189